Timestamp,Altitude_ft,Airspeed_kts,AccelX_ft_s2,AccelY_ft_s2,AccelZ_ft_s2
2026-01-16 08:56:38.702,3198,80,0.354,-0.583,0.363
2026-01-16 08:56:38.965,3196,80,0.360,-0.538,0.395
2026-01-16 08:56:39.228,3194,80,0.366,-0.506,0.424
2026-01-16 08:56:39.489,3193,80,0.369,-0.476,0.451
2026-01-16 08:56:39.755,3191,80,0.372,-0.445,0.477
2026-01-16 08:56:40.033,3189,80,0.375,-0.412,0.500
2026-01-16 08:56:40.298,3188,80,0.378,-0.385,0.521
2026-01-16 08:56:40.562,3186,80,0.379,-0.362,0.540
2026-01-16 08:56:40.826,3184,80,0.381,-0.332,0.557
2026-01-16 08:56:41.089,3182,80,0.383,-0.296,0.573
2026-01-16 08:56:41.367,3180,80,0.384,-0.262,0.586
2026-01-16 08:56:41.634,3178,81,0.384,-0.225,0.598
2026-01-16 08:56:41.915,3176,81,0.384,-0.185,0.607
2026-01-16 08:56:42.162,3175,81,0.384,-0.185,0.614
2026-01-16 08:56:42.427,3173,81,0.384,-0.140,0.621
2026-01-16 08:56:42.691,3171,81,0.382,-0.077,0.624
2026-01-16 08:56:42.957,3169,81,0.380,-0.024,0.624
2026-01-16 08:56:43.221,3167,81,0.380,0.019,0.622
2026-01-16 08:56:43.498,3165,81,0.381,0.051,0.617
2026-01-16 08:56:43.763,3163,81,0.382,0.079,0.611
2026-01-16 08:56:44.030,3161,81,0.381,0.116,0.604
2026-01-16 08:56:44.295,3159,81,0.379,0.181,0.596
2026-01-16 08:56:44.559,3157,82,0.375,0.222,0.585
2026-01-16 08:56:44.826,3155,82,0.371,0.251,0.571
2026-01-16 08:56:45.090,3153,82,0.367,0.276,0.556
2026-01-16 08:56:45.368,3151,82,0.363,0.304,0.539
2026-01-16 08:56:45.635,3150,82,0.360,0.332,0.521
2026-01-16 08:56:45.899,3148,82,0.357,0.367,0.503
2026-01-16 08:56:46.163,3146,82,0.353,0.426,0.484
2026-01-16 08:56:46.429,3144,82,0.347,0.455,0.462
2026-01-16 08:56:46.693,3142,82,0.343,0.469,0.438
2026-01-16 08:56:46.957,3141,82,0.338,0.480,0.413
2026-01-16 08:56:47.223,3139,82,0.333,0.489,0.386
2026-01-16 08:56:47.502,3137,82,0.328,0.494,0.359
2026-01-16 08:56:47.765,3136,82,0.342,0.437,0.326
2026-01-16 08:56:48.027,3134,83,0.347,0.433,0.301
2026-01-16 08:56:48.291,3132,83,0.371,0.415,0.279
2026-01-16 08:56:48.569,3131,83,0.395,0.417,0.254
2026-01-16 08:56:48.835,3129,83,0.418,0.418,0.229
2026-01-16 08:56:49.099,3128,83,0.445,0.424,0.200
2026-01-16 08:56:49.362,3127,83,1.046,0.761,0.170
2026-01-16 08:56:49.626,3125,83,0.650,1.586,0.117
2026-01-16 08:56:49.888,3124,83,0.010,1.346,0.033
2026-01-16 08:56:50.165,3123,83,-1.615,0.434,-0.107
2026-01-16 08:56:50.430,3121,83,-0.793,-2.389,-0.373
2026-01-16 08:56:50.693,3120,83,0.563,-0.606,0.024
2026-01-16 08:56:50.956,3119,83,1.563,-0.306,0.116
2026-01-16 08:56:51.235,3117,83,2.094,-0.240,0.080
2026-01-16 08:56:51.498,3116,83,3.183,-2.349,-0.144
2026-01-16 08:56:51.762,3115,83,4.678,-3.879,-0.125
2026-01-16 08:56:52.027,3113,83,6.796,-3.889,0.221
2026-01-16 08:56:52.289,3111,83,9.173,-5.420,0.348
2026-01-16 08:56:52.569,3108,83,11.268,-3.807,0.805
2026-01-16 08:56:52.834,3105,83,13.067,-2.507,1.235
2026-01-16 08:56:53.098,3101,83,14.359,-1.094,1.685
2026-01-16 08:56:53.362,3096,84,15.447,0.047,2.154
2026-01-16 08:56:53.625,3091,84,16.465,3.243,2.705
2026-01-16 08:56:53.888,3086,84,17.352,17.759,3.589
2026-01-16 08:56:54.167,3080,85,17.671,38.475,4.863
2026-01-16 08:56:54.429,3076,85,17.685,64.879,7.207
2026-01-16 08:56:54.692,3073,85,17.817,83.973,8.060
2026-01-16 08:56:54.957,3074,84,18.223,94.269,7.542
2026-01-16 08:56:55.236,3079,82,19.012,105.916,8.540
2026-01-16 08:56:55.500,3089,80,20.486,121.171,12.648
2026-01-16 08:56:55.761,3101,77,22.194,112.634,6.974
2026-01-16 08:56:56.027,3116,70,18.629,83.541,-14.833
2026-01-16 08:56:56.293,3131,60,14.641,71.203,-25.846
2026-01-16 08:56:56.558,3143,49,15.686,58.145,-22.638
2026-01-16 08:56:56.823,3152,42,18.303,45.317,-19.245
2026-01-16 08:56:57.089,3158,39,21.597,33.091,-15.335
2026-01-16 08:56:57.368,3161,40,25.319,20.484,-9.796
2026-01-16 08:56:57.632,3162,41,28.080,14.848,-4.054
2026-01-16 08:56:57.896,3160,42,29.033,14.026,1.135
2026-01-16 08:56:58.177,3156,43,29.608,11.393,6.046
2026-01-16 08:56:58.457,3150,44,29.404,8.581,10.739
2026-01-16 08:56:58.753,3141,46,28.577,8.012,15.112
2026-01-16 08:56:59.031,3129,49,27.070,8.920,18.432
2026-01-16 08:56:59.327,3115,51,25.301,10.168,20.869
2026-01-16 08:56:59.607,3097,54,23.451,11.017,22.457
2026-01-16 08:56:59.916,3077,58,21.911,9.938,23.214
2026-01-16 08:57:00.230,3055,62,19.421,10.752,23.832
2026-01-16 08:57:00.523,3023,66,16.977,11.347,24.385
2026-01-16 08:57:00.819,2993,70,15.061,12.206,25.062
2026-01-16 08:57:01.115,2961,74,13.336,13.861,25.808
2026-01-16 08:57:01.410,2926,78,11.531,15.789,26.510
2026-01-16 08:57:01.707,2888,83,9.554,17.600,27.072
2026-01-16 08:57:01.986,2847,87,7.275,20.010,27.800
2026-01-16 08:57:02.283,2805,92,4.974,44.284,30.079
2026-01-16 08:57:02.563,2759,96,4.446,93.891,37.375
2026-01-16 08:57:02.857,2709,101,4.347,135.554,45.036
2026-01-16 08:57:03.169,2655,105,4.143,147.979,45.475
2026-01-16 08:57:03.478,2596,110,3.974,148.905,42.039
2026-01-16 08:57:03.773,2541,115,3.894,137.226,34.172
2026-01-16 08:57:04.070,2492,119,3.757,88.712,23.870
2026-01-16 08:57:04.381,2447,123,3.609,63.593,19.681
2026-01-16 08:57:04.661,2410,126,3.491,65.037,17.559
2026-01-16 08:57:04.957,2373,129,3.399,63.899,14.885
2026-01-16 08:57:05.249,2340,131,3.325,37.585,11.469
2026-01-16 08:57:05.541,2312,133,3.244,63.930,11.483
2026-01-16 08:57:05.834,2287,135,3.170,53.444,7.705
2026-01-16 08:57:06.112,2268,136,3.129,29.768,5.571
2026-01-16 08:57:06.377,2252,137,3.100,29.995,4.536
2026-01-16 08:57:06.654,2238,138,3.051,29.999,3.478
2026-01-16 08:57:06.934,2226,138,3.010,29.865,2.389
2026-01-16 08:57:07.199,2217,139,2.979,29.643,1.323
2026-01-16 08:57:07.465,2209,139,2.959,24.382,0.088
2026-01-16 08:57:07.745,2204,139,2.957,-4.034,-0.575
2026-01-16 08:57:08.025,2199,139,2.963,12.226,-0.509
2026-01-16 08:57:08.306,2194,139,2.917,-0.216,-0.876
2026-01-16 08:57:08.567,2190,139,2.961,1.095,-0.836
2026-01-16 08:57:08.831,2186,139,2.983,2.256,-0.871
2026-01-16 08:57:09.110,2182,138,2.927,2.118,-0.932
2026-01-16 08:57:09.387,2178,138,2.968,7.227,-0.921
2026-01-16 08:57:09.652,2175,138,2.976,39.515,-0.642
2026-01-16 08:57:09.902,2173,138,2.458,88.804,1.110
2026-01-16 08:57:10.181,2176,137,2.466,101.060,-2.880
2026-01-16 08:57:10.447,2186,136,2.413,44.814,-9.192
2026-01-16 08:57:10.693,2201,135,1.701,22.686,-10.712
2026-01-16 08:57:10.959,2218,133,0.991,21.878,-11.442
2026-01-16 08:57:11.223,2235,132,0.435,19.441,-12.249
2026-01-16 08:57:11.489,2254,130,-0.010,18.579,-12.737
2026-01-16 08:57:11.769,2274,128,-0.382,18.583,-13.233
2026-01-16 08:57:12.033,2295,126,-0.572,17.951,-13.815
2026-01-16 08:57:12.297,2317,124,-0.658,16.751,-14.373
2026-01-16 08:57:12.560,2339,121,-0.705,15.497,-14.899
2026-01-16 08:57:12.822,2362,119,-0.712,14.271,-15.379
2026-01-16 08:57:13.102,2385,117,-0.682,13.072,-15.818
2026-01-16 08:57:13.365,2409,114,-0.671,11.852,-16.218
2026-01-16 08:57:13.630,2433,112,-0.674,10.599,-16.580
2026-01-16 08:57:13.893,2457,109,-0.685,9.419,-16.897
2026-01-16 08:57:14.157,2481,107,-0.695,8.340,-17.177
2026-01-16 08:57:14.422,2505,104,-0.703,7.305,-17.418
2026-01-16 08:57:14.703,2529,101,-0.704,6.300,-17.625
2026-01-16 08:57:14.969,2553,99,-0.710,5.277,-17.795
2026-01-16 08:57:15.234,2576,96,-0.720,4.286,-17.929
2026-01-16 08:57:15.497,2599,93,-0.698,-2.190,-18.110
2026-01-16 08:57:15.762,2621,90,-0.706,-37.862,-15.796
2026-01-16 08:57:16.025,2642,88,-0.677,-61.693,-10.951
2026-01-16 08:57:16.290,2658,85,-0.636,-63.073,-7.545
2026-01-16 08:57:16.568,2670,83,-0.601,-59.143,-4.507
2026-01-16 08:57:16.831,2678,82,-0.560,-58.311,-1.106
2026-01-16 08:57:17.096,2681,81,-0.512,-57.624,2.305
2026-01-16 08:57:17.361,2681,81,-0.458,-57.176,5.723
2026-01-16 08:57:17.622,2676,81,-0.405,-56.941,9.038
2026-01-16 08:57:17.900,2667,81,-0.356,-52.531,11.434
2026-01-16 08:57:18.163,2654,83,-0.311,-39.888,12.817
2026-01-16 08:57:18.426,2638,84,-0.272,-33.843,14.305
2026-01-16 08:57:18.707,2620,86,-0.214,-28.439,15.516
2026-01-16 08:57:18.971,2598,88,-0.162,-27.039,16.711
2026-01-16 08:57:19.250,2575,91,-0.092,-32.517,18.262
2026-01-16 08:57:19.526,2549,93,-0.025,-47.101,20.756
2026-01-16 08:57:19.807,2519,96,0.032,-52.214,22.928
2026-01-16 08:57:20.103,2484,99,0.070,-41.805,23.573
2026-01-16 08:57:20.383,2444,103,0.100,-12.990,23.451
2026-01-16 08:57:20.676,2403,107,0.103,2.493,23.400
2026-01-16 08:57:20.954,2358,111,0.134,17.134,23.262
2026-01-16 08:57:21.234,2312,115,0.578,19.360,22.271
2026-01-16 08:57:21.514,2269,118,1.514,17.415,21.375
2026-01-16 08:57:21.793,2225,122,3.275,18.405,20.692
2026-01-16 08:57:22.087,2180,125,5.320,20.458,20.037
2026-01-16 08:57:22.365,2134,128,7.074,35.314,19.977
2026-01-16 08:57:22.646,2090,132,8.043,49.889,19.277
2026-01-16 08:57:22.928,2046,135,9.239,54.416,17.925
2026-01-16 08:57:23.224,2003,137,10.747,57.185,16.491
2026-01-16 08:57:23.523,1962,140,12.302,60.368,15.011
2026-01-16 08:57:23.818,1923,143,13.675,65.625,13.759
2026-01-16 08:57:24.111,1887,145,14.666,76.039,12.447
2026-01-16 08:57:24.408,1855,147,15.817,79.431,10.652
2026-01-16 08:57:24.704,1827,148,17.176,83.185,9.081
2026-01-16 08:57:24.999,1803,149,18.359,94.081,7.979
2026-01-16 08:57:25.280,1785,150,19.051,104.370,6.649
2026-01-16 08:57:25.560,1771,151,19.679,103.952,4.121
2026-01-16 08:57:25.840,1762,151,20.396,96.173,1.619
2026-01-16 08:57:26.105,1757,151,22.127,93.288,0.075
2026-01-16 08:57:26.385,1756,150,23.321,94.416,-1.122
2026-01-16 08:57:26.633,1758,150,23.972,96.552,-1.932
2026-01-16 08:57:26.897,1761,149,24.711,99.522,-2.736
2026-01-16 08:57:27.176,1767,148,25.526,105.048,-2.971
2026-01-16 08:57:27.443,1775,147,26.568,112.888,-2.840
2026-01-16 08:57:27.723,1785,145,28.222,121.766,-2.317
2026-01-16 08:57:27.987,1797,144,29.017,127.678,-2.149
2026-01-16 08:57:28.252,1809,143,28.992,128.370,-2.549
2026-01-16 08:57:28.500,1823,141,28.991,128.138,-2.979
2026-01-16 08:57:28.764,1838,139,29.119,127.653,-3.278
2026-01-16 08:57:29.042,1853,138,29.276,127.086,-3.380
2026-01-16 08:57:29.304,1869,136,29.530,126.818,-3.321
2026-01-16 08:57:29.567,1884,134,29.842,126.662,-3.048
2026-01-16 08:57:29.833,1900,133,30.081,126.259,-2.664
2026-01-16 08:57:30.100,1915,131,30.322,125.858,-2.119
2026-01-16 08:57:30.377,1929,129,30.579,125.445,-1.389
2026-01-16 08:57:30.641,1941,128,30.789,124.861,-0.521
2026-01-16 08:57:30.904,1953,126,32.337,122.653,0.411
2026-01-16 08:57:31.165,1962,125,33.863,119.290,1.456
2026-01-16 08:57:31.444,1970,124,34.852,118.960,2.811
2026-01-16 08:57:31.706,1977,122,33.718,121.502,3.905
2026-01-16 08:57:31.972,1983,121,32.401,123.484,4.523
2026-01-16 08:57:32.236,1987,120,32.258,122.798,4.883
2026-01-16 08:57:32.501,1991,120,32.633,121.899,5.332
2026-01-16 08:57:32.765,1994,119,32.937,122.034,5.995
2026-01-16 08:57:33.044,1997,118,32.995,122.579,6.446
2026-01-16 08:57:33.308,1999,117,32.158,123.209,6.653
2026-01-16 08:57:33.574,2001,117,31.877,123.413,6.631
2026-01-16 08:57:33.853,2004,116,31.731,122.573,6.536
2026-01-16 08:57:34.134,2006,115,31.631,122.787,6.621
2026-01-16 08:57:34.411,2010,115,31.664,121.861,6.415
2026-01-16 08:57:34.691,2013,114,31.680,121.927,6.323
2026-01-16 08:57:34.956,2017,113,31.490,121.228,6.171
2026-01-16 08:57:35.237,2022,112,31.340,121.130,5.831
2026-01-16 08:57:35.501,2027,111,31.310,120.672,5.640
2026-01-16 08:57:35.782,2033,110,31.289,120.087,5.382
2026-01-16 08:57:36.046,2039,109,31.262,120.063,5.217
2026-01-16 08:57:36.310,2046,108,31.242,119.756,5.111
2026-01-16 08:57:36.560,2053,107,31.299,119.222,4.997
2026-01-16 08:57:36.823,2061,106,31.350,118.538,4.926
2026-01-16 08:57:37.088,2069,104,31.434,118.333,4.963
2026-01-16 08:57:37.368,2077,103,31.521,118.158,5.202
2026-01-16 08:57:37.633,2086,102,31.655,118.243,5.591
2026-01-16 08:57:37.897,2094,100,31.823,118.448,6.106
2026-01-16 08:57:38.161,2102,99,31.982,118.384,6.662
2026-01-16 08:57:38.422,2110,98,32.148,118.648,7.333
2026-01-16 08:57:38.700,2117,96,32.313,118.825,8.205
2026-01-16 08:57:38.964,2124,95,32.503,118.870,9.137
2026-01-16 08:57:39.226,2130,94,32.680,119.399,10.149
2026-01-16 08:57:39.490,2135,93,32.872,119.126,11.313
2026-01-16 08:57:39.769,2139,92,33.675,118.591,12.438
2026-01-16 08:57:40.032,2143,91,34.086,118.727,13.815
2026-01-16 08:57:40.296,2145,90,34.120,118.314,14.796
2026-01-16 08:57:40.558,2147,89,34.010,117.483,15.366
2026-01-16 08:57:40.824,2149,88,33.793,116.140,15.544
2026-01-16 08:57:41.101,2150,87,33.399,114.479,15.459
2026-01-16 08:57:41.367,2150,87,33.063,112.844,15.273
2026-01-16 08:57:41.634,2151,86,32.900,111.259,14.975
2026-01-16 08:57:41.898,2152,85,32.742,108.307,14.059
2026-01-16 08:57:42.161,2153,85,32.566,96.690,9.288
2026-01-16 08:57:42.426,2154,85,31.793,50.030,0.475
2026-01-16 08:57:42.722,2155,85,30.187,9.948,-1.307
2026-01-16 08:57:42.987,2154,85,28.016,1.822,-0.601
2026-01-16 08:57:43.267,2152,85,26.221,12.808,0.725
2026-01-16 08:57:43.547,2149,85,25.329,26.113,1.950
2026-01-16 08:57:43.825,2144,85,24.065,8.570,1.628
2026-01-16 08:57:44.107,2139,85,21.503,-2.316,2.352
2026-01-16 08:57:44.386,2134,86,18.353,-3.915,3.293
2026-01-16 08:57:44.666,2126,86,15.114,-5.589,4.064
2026-01-16 08:57:44.946,2118,87,11.802,-20.212,5.243
2026-01-16 08:57:45.227,2109,88,8.398,-43.069,8.207
2026-01-16 08:57:45.493,2097,89,5.478,-48.416,11.124
2026-01-16 08:57:45.771,2082,90,4.095,-46.432,13.519
2026-01-16 08:57:46.066,2062,92,3.603,-46.601,16.025
2026-01-16 08:57:46.346,2039,94,3.774,-35.061,16.945
2026-01-16 08:57:46.625,2012,97,4.601,5.840,17.307
2026-01-16 08:57:46.905,1983,99,4.895,43.711,18.423
2026-01-16 08:57:47.202,1954,102,4.273,69.882,18.279
2026-01-16 08:57:47.483,1930,104,4.312,79.078,15.316
2026-01-16 08:57:47.778,1911,105,6.275,79.432,11.228
2026-01-16 08:57:48.057,1897,106,9.162,81.009,7.825
2026-01-16 08:57:48.337,1889,107,12.186,82.994,5.039
2026-01-16 08:57:48.616,1885,107,14.427,91.601,3.722
2026-01-16 08:57:48.895,1887,106,17.563,101.455,2.025
2026-01-16 08:57:49.144,1893,105,19.011,82.410,-2.781
2026-01-16 08:57:49.408,1903,104,22.046,68.721,-4.627
2026-01-16 08:57:49.674,1916,103,25.642,60.865,-5.650
2026-01-16 08:57:49.937,1930,101,26.640,46.944,-7.678
2026-01-16 08:57:50.201,1945,99,26.144,34.860,-9.017
2026-01-16 08:57:50.464,1960,98,26.906,24.045,-10.161
2026-01-16 08:57:50.729,1974,96,24.823,5.714,-11.003
2026-01-16 08:57:51.008,1988,94,22.345,0.675,-10.860
2026-01-16 08:57:51.273,2000,92,20.388,-0.806,-10.225
2026-01-16 08:57:51.538,2011,91,18.901,-2.562,-9.331
2026-01-16 08:57:51.804,2020,89,18.122,-4.895,-8.321
2026-01-16 08:57:52.068,2029,88,16.501,-23.487,-6.982
2026-01-16 08:57:52.333,2036,87,12.864,-44.286,-3.976
2026-01-16 08:57:52.598,2040,86,9.942,-45.373,-1.305
2026-01-16 08:57:52.878,2041,85,9.084,-35.700,0.284
2026-01-16 08:57:53.143,2039,85,9.177,-12.983,1.196
2026-01-16 08:57:53.410,2035,85,11.330,-2.681,1.617
2026-01-16 08:57:53.670,2031,86,12.878,6.915,2.153
2026-01-16 08:57:53.933,2026,86,14.745,16.852,2.345
2026-01-16 08:57:54.212,2022,86,16.873,23.057,2.048
2026-01-16 08:57:54.478,2018,86,19.087,26.162,1.533
2026-01-16 08:57:54.772,2015,86,21.334,28.967,1.303
2026-01-16 08:57:55.036,2012,86,23.371,34.163,1.508
2026-01-16 08:57:55.317,2009,86,24.200,43.473,2.593
2026-01-16 08:57:55.599,2005,86,26.618,49.709,3.821
2026-01-16 08:57:55.878,2002,87,28.602,59.899,6.178
2026-01-16 08:57:56.143,1999,87,29.067,69.378,7.750
2026-01-16 08:57:56.409,1996,87,28.911,71.429,7.587
2026-01-16 08:57:56.673,1994,87,28.477,69.602,6.362
2026-01-16 08:57:56.953,1992,87,28.576,44.005,1.775
2026-01-16 08:57:57.233,1990,87,27.374,8.003,0.219
2026-01-16 08:57:57.497,1988,87,25.046,-0.867,1.147
2026-01-16 08:57:57.763,1984,87,23.111,1.975,2.310
2026-01-16 08:57:58.028,1979,87,21.940,19.906,3.833
2026-01-16 08:57:58.308,1974,88,21.585,37.227,4.754
2026-01-16 08:57:58.588,1969,88,21.319,45.273,4.531
2026-01-16 08:57:58.854,1965,88,20.913,46.082,3.096
2026-01-16 08:57:59.135,1963,88,20.662,32.472,0.673
2026-01-16 08:57:59.399,1962,88,20.409,21.573,-0.415
2026-01-16 08:57:59.663,1962,88,19.006,12.356,-0.952
2026-01-16 08:57:59.929,1961,88,17.572,7.049,-1.240
2026-01-16 08:58:00.207,1961,88,15.731,1.875,-1.104
2026-01-16 08:58:00.472,1960,88,12.965,-2.678,-0.930
2026-01-16 08:58:00.752,1959,88,10.827,4.161,-0.002
2026-01-16 08:58:01.015,1957,88,9.101,22.672,0.643
2026-01-16 08:58:01.279,1957,87,8.825,25.290,-0.716
2026-01-16 08:58:01.527,1957,87,7.448,5.279,-2.562
2026-01-16 08:58:01.794,1959,87,5.659,-3.198,-2.857
2026-01-16 08:58:02.058,1961,86,3.263,-3.257,-2.544
2026-01-16 08:58:02.322,1962,86,1.236,-1.918,-2.041
2026-01-16 08:58:02.588,1963,86,-0.062,-0.479,-1.894
2026-01-16 08:58:02.866,1964,85,0.027,-0.924,-1.999
2026-01-16 08:58:03.131,1965,85,0.688,-1.845,-1.975
2026-01-16 08:58:03.394,1966,85,1.352,-0.329,-1.725
2026-01-16 08:58:03.657,1967,85,1.697,-0.151,-1.680
2026-01-16 08:58:03.935,1967,84,1.683,0.375,-1.660
2026-01-16 08:58:04.199,1968,84,1.778,0.473,-1.662
2026-01-16 08:58:04.464,1969,84,1.920,0.420,-1.671
2026-01-16 08:58:04.729,1969,84,2.035,0.433,-1.671
2026-01-16 08:58:04.994,1970,83,2.068,0.421,-1.681
2026-01-16 08:58:05.256,1971,83,2.032,0.345,-1.695
2026-01-16 08:58:05.533,1972,83,1.962,0.241,-1.708
2026-01-16 08:58:05.795,1973,83,1.805,-0.540,-1.819
2026-01-16 08:58:06.057,1973,82,1.628,-0.265,-1.668
2026-01-16 08:58:06.320,1974,82,1.045,-0.471,-1.623
2026-01-16 08:58:06.602,1975,82,1.050,-0.303,-1.585
2026-01-16 08:58:06.866,1975,82,1.116,-0.195,-1.562
2026-01-16 08:58:07.130,1976,81,1.107,-0.287,-1.544
2026-01-16 08:58:07.395,1977,81,1.059,-0.371,-1.518
2026-01-16 08:58:07.658,1977,81,1.031,-0.415,-1.494
2026-01-16 08:58:07.921,1978,81,1.025,-0.439,-1.465
2026-01-16 08:58:08.188,1978,80,1.029,-0.513,-1.431
2026-01-16 08:58:08.467,1979,80,1.042,-0.539,-1.393
2026-01-16 08:58:08.731,1979,80,1.056,-0.584,-1.349
2026-01-16 08:58:08.995,1979,80,1.067,-0.667,-1.304
2026-01-16 08:58:09.259,1980,80,1.076,-0.703,-1.255
2026-01-16 08:58:09.523,1980,79,1.070,-0.748,-1.204
2026-01-16 08:58:09.789,1980,79,1.049,-0.809,-1.149
2026-01-16 08:58:10.721,1980,79,1.015,-0.988,-0.932
2026-01-16 08:58:10.998,1980,78,1.005,-1.026,-0.864
2026-01-16 08:58:11.262,1980,78,1.009,-1.066,-0.799
2026-01-16 08:58:11.523,1980,78,1.008,-1.118,-0.728
2026-01-16 08:58:11.787,1979,78,0.994,-1.170,-0.651
2026-01-16 08:58:12.066,1979,78,0.986,-1.158,-0.578
2026-01-16 08:58:12.330,1978,78,0.985,-1.166,-0.502
2026-01-16 08:58:12.594,1978,78,0.978,-1.191,-0.425
2026-01-16 08:58:12.858,1977,78,0.966,-1.208,-0.346
2026-01-16 08:58:13.123,1976,78,0.958,-1.193,-0.266
2026-01-16 08:58:13.390,1975,78,0.954,-1.174,-0.188
2026-01-16 08:58:13.657,1974,78,0.948,-1.161,-0.107
2026-01-16 08:58:13.934,1973,78,0.938,-1.157,-0.027
2026-01-16 08:58:14.197,1972,78,0.931,-1.091,0.051
2026-01-16 08:58:14.462,1971,78,0.925,-1.021,0.123
2026-01-16 08:58:14.726,1970,78,0.918,-0.992,0.194
2026-01-16 08:58:14.992,1968,78,0.909,-0.977,0.268
2026-01-16 08:58:15.256,1967,78,0.901,-0.954,0.335
2026-01-16 08:58:15.536,1965,78,0.896,-0.950,0.400
2026-01-16 08:58:15.798,1964,78,0.893,-0.941,0.465
2026-01-16 08:58:16.062,1962,78,0.886,-0.931,0.528
2026-01-16 08:58:16.327,1960,78,0.877,-0.918,0.588
2026-01-16 08:58:16.590,1959,78,0.872,-0.904,0.647
2026-01-16 08:58:16.855,1957,78,0.868,-0.871,0.702
2026-01-16 08:58:17.133,1955,78,0.859,-0.827,0.757
2026-01-16 08:58:17.395,1953,78,0.850,-0.827,0.807
2026-01-16 08:58:17.661,1951,79,0.847,-0.800,0.854
2026-01-16 08:58:17.924,1949,79,0.848,-0.719,0.897
2026-01-16 08:58:18.190,1947,79,0.845,-0.668,0.939
2026-01-16 08:58:18.468,1944,79,0.842,-0.609,0.977
2026-01-16 08:58:18.733,1942,79,0.841,-0.549,1.012
2026-01-16 08:58:19.013,1940,79,0.839,-0.482,1.045
2026-01-16 08:58:19.278,1938,79,0.835,-0.409,1.073
2026-01-16 08:58:19.526,1935,80,0.830,-0.316,1.100
2026-01-16 08:58:19.793,1933,80,0.826,-0.230,1.122
2026-01-16 08:58:20.058,1930,80,0.824,-0.167,1.138
2026-01-16 08:58:20.335,1928,80,0.822,-0.175,1.147
2026-01-16 08:58:20.599,1925,80,0.819,-0.143,1.157
2026-01-16 08:58:20.865,1923,80,0.815,-0.099,1.162
2026-01-16 08:58:21.127,1921,81,0.812,-0.031,1.164
2026-01-16 08:58:21.391,1918,81,0.814,0.037,1.159
2026-01-16 08:58:21.655,1916,81,0.812,0.130,1.155
2026-01-16 08:58:21.932,1913,81,0.820,0.374,1.137
2026-01-16 08:58:22.197,1911,81,0.818,0.321,1.112
2026-01-16 08:58:22.462,1908,82,0.803,0.254,1.095
2026-01-16 08:58:22.728,1906,82,0.795,0.311,1.077
2026-01-16 08:58:22.991,1903,82,0.795,0.410,1.050
2026-01-16 08:58:23.255,1901,82,0.796,0.417,1.019
2026-01-16 08:58:23.521,1898,82,0.788,0.351,0.991
2026-01-16 08:58:23.788,1896,82,0.776,0.333,0.964
2026-01-16 08:58:24.067,1894,83,0.772,0.312,0.935
2026-01-16 08:58:24.329,1891,83,0.774,0.400,0.905
2026-01-16 08:58:24.592,1889,83,0.773,0.471,0.871
2026-01-16 08:58:24.857,1887,83,0.767,0.517,0.833
2026-01-16 08:58:25.122,1885,83,0.761,0.564,0.795
2026-01-16 08:58:25.404,1883,83,0.761,0.622,0.753
2026-01-16 08:58:25.666,1880,83,0.759,0.681,0.711
2026-01-16 08:58:25.928,1878,83,0.757,0.745,0.667
2026-01-16 08:58:26.194,1876,84,0.757,0.813,0.619
2026-01-16 08:58:26.461,1874,84,0.757,0.866,0.569
2026-01-16 08:58:26.722,1872,84,0.757,0.920,0.517
2026-01-16 08:58:26.986,1870,84,0.757,0.964,0.463
2026-01-16 08:58:27.262,1869,84,0.757,1.005,0.407
2026-01-16 08:58:27.524,1867,84,0.757,1.038,0.350
2026-01-16 08:58:27.788,1865,84,0.758,1.062,0.291
2026-01-16 08:58:28.253,1862,84,0.757,1.082,0.188
2026-01-16 08:58:28.533,1861,84,0.757,1.081,0.128
2026-01-16 08:58:28.794,1860,84,0.759,1.069,0.068
2026-01-16 08:58:29.103,1858,84,0.759,1.072,0.008
2026-01-16 08:58:29.367,1857,84,0.760,1.035,-0.055
2026-01-16 08:58:29.630,1856,84,0.761,1.033,-0.112
2026-01-16 08:58:29.893,1855,84,0.762,1.030,-0.170
2026-01-16 08:58:30.173,1854,84,0.761,1.022,-0.227
2026-01-16 08:58:30.439,1853,84,0.761,1.007,-0.283
2026-01-16 08:58:30.717,1852,84,0.760,1.041,-0.337
2026-01-16 08:58:30.996,1851,84,0.758,0.977,-0.392
2026-01-16 08:58:31.276,1850,84,0.757,0.934,-0.446
2026-01-16 08:58:31.543,1850,84,0.756,0.894,-0.496
2026-01-16 08:58:31.806,1849,84,0.756,0.884,-0.543
2026-01-16 08:58:32.085,1848,84,0.754,0.870,-0.587
2026-01-16 08:58:32.362,1848,84,0.751,0.853,-0.631
2026-01-16 08:58:32.628,1847,84,0.748,0.821,-0.672
2026-01-16 08:58:32.908,1847,84,0.745,0.805,-0.710
2026-01-16 08:58:33.174,1847,83,0.743,0.790,-0.746
2026-01-16 08:58:33.438,1847,83,0.740,0.765,-0.779
2026-01-16 08:58:33.701,1846,83,0.736,0.713,-0.812
2026-01-16 08:58:33.965,1846,83,0.732,0.648,-0.842
2026-01-16 08:58:34.244,1846,83,0.728,0.588,-0.869
2026-01-16 08:58:34.523,1846,83,0.723,0.535,-0.892
2026-01-16 08:58:34.790,1846,83,0.715,0.464,-0.912
2026-01-16 08:58:35.056,1846,82,0.708,0.409,-0.928
2026-01-16 08:58:35.320,1846,82,0.699,0.339,-0.942
2026-01-16 08:58:35.613,1846,82,0.687,0.288,-0.946
2026-01-16 08:58:35.876,1846,82,0.675,0.196,-0.955
2026-01-16 08:58:36.139,1846,82,0.663,0.054,-0.956
2026-01-16 08:58:36.416,1846,82,0.647,0.010,-0.951
2026-01-16 08:58:36.694,1846,82,0.626,-0.071,-0.948
2026-01-16 08:58:36.958,1847,81,0.606,-0.233,-0.940
2026-01-16 08:58:37.220,1847,81,0.595,-0.368,-0.931
2026-01-16 08:58:37.484,1847,81,0.591,-0.507,-0.914
2026-01-16 08:58:37.763,1847,81,0.587,-0.627,-0.890
2026-01-16 08:58:38.043,1847,81,0.583,-0.658,-0.858
2026-01-16 08:58:38.308,1847,81,0.577,-0.663,-0.818
2026-01-16 08:58:38.572,1846,81,0.572,-0.660,-0.782
2026-01-16 08:58:38.836,1846,80,0.573,-0.718,-0.750
2026-01-16 08:58:39.100,1846,80,0.578,-0.722,-0.712
2026-01-16 08:58:39.365,1846,80,0.582,-0.648,-0.668
2026-01-16 08:58:39.630,1845,80,0.585,-0.623,-0.631
2026-01-16 08:58:39.911,1845,80,0.589,-0.655,-0.599
2026-01-16 08:58:40.172,1845,80,0.592,-0.641,-0.554
2026-01-16 08:58:40.452,1844,80,0.589,-0.640,-0.516
2026-01-16 08:58:40.701,1844,80,0.583,-0.632,-0.474
2026-01-16 08:58:40.980,1843,80,0.576,-0.665,-0.435
2026-01-16 08:58:41.247,1842,80,0.569,-0.695,-0.392
2026-01-16 08:58:41.511,1842,80,0.562,-0.729,-0.348
2026-01-16 08:58:41.776,1841,79,0.550,-0.749,-0.302
2026-01-16 08:58:42.054,1840,79,0.539,-0.774,-0.256
2026-01-16 08:58:42.319,1839,79,0.531,-0.808,-0.211
2026-01-16 08:58:42.584,1839,79,0.526,-0.828,-0.165
2026-01-16 08:58:42.850,1838,79,0.521,-0.840,-0.121
2026-01-16 08:58:43.117,1837,79,0.516,-0.737,-0.071
2026-01-16 08:58:43.378,1835,79,0.513,-0.682,-0.029
2026-01-16 08:58:43.642,1834,79,0.511,-0.685,0.010
2026-01-16 08:58:43.906,1833,79,0.509,-0.627,0.050
2026-01-16 08:58:44.186,1832,79,0.510,-0.637,0.085
2026-01-16 08:58:44.451,1831,79,0.510,-0.552,0.124
2026-01-16 08:58:44.714,1829,79,0.508,-0.493,0.159
2026-01-16 08:58:44.979,1828,79,0.507,-0.494,0.191
2026-01-16 08:58:45.214,1827,80,0.507,-0.501,0.219
2026-01-16 08:58:45.494,1825,80,0.503,-0.556,0.251
2026-01-16 08:58:45.760,1824,80,0.494,-0.602,0.284
2026-01-16 08:58:46.038,1822,80,0.482,-0.578,0.322
2026-01-16 08:58:46.333,1821,80,0.461,-0.481,0.359
2026-01-16 08:58:46.598,1819,80,0.436,-0.364,0.393
2026-01-16 08:58:46.880,1818,80,0.411,-0.269,0.422
2026-01-16 08:58:47.631,1813,80,0.335,-0.048,0.479
2026-01-16 08:58:47.893,1811,80,0.322,-0.100,0.492
